Date: 2-26-2020    Time: 15:33:14
Integration time per accumulation is 10 sec.
File for binning: <none>
Shutter Mode:  Auto
Cosmic Ray Removal: no
Sum Frames: no
File for bkgd subtraction: <no background>
File for white light calibration: <no wl correction>
Savitsky-Golay Smooth: no
CCD temperature: -60 Celsius
Comment: <no comment>
Tune Laser: Off
Data mode:  Spectrum mode.  Full Vertical Bin
Number of accumulations per frame: 1
Number of frames: 1
Total seconds of CCD data acquisition: 10
Number of xpixels: 1024
Number of tracks per frame: 1
Calibration File: C:\CCD\Jason\Controller\Calibration\SpectralCalibration\Calibration Data\Calibration_7-27-10b.asc
Track shifts: 0
1	840.77	150.06	360
2	840.94	152.37	353
3	841.1	154.67	364
4	841.26	156.97	377
5	841.43	159.27	387
6	841.59	161.58	389
7	841.75	163.88	387
8	841.92	166.17	394
9	842.08	168.47	409
10	842.24	170.77	424
11	842.4	173.06	446
12	842.57	175.36	467
13	842.73	177.65	486
14	842.89	179.95	502
15	843.06	182.24	491
16	843.22	184.53	494
17	843.38	186.82	487
18	843.54	189.11	498
19	843.71	191.4	512
20	843.87	193.68	509
21	844.03	195.97	518
22	844.2	198.25	515
23	844.36	200.54	525
24	844.52	202.82	525
25	844.68	205.1	527
26	844.85	207.38	544
27	845.01	209.66	544
28	845.17	211.94	564
29	845.33	214.22	559
30	845.5	216.49	571
31	845.66	218.77	595
32	845.82	221.05	584
33	845.99	223.32	583
34	846.15	225.59	582
35	846.31	227.86	585
36	846.47	230.13	588
37	846.64	232.4	584
38	846.8	234.67	576
39	846.96	236.94	563
40	847.12	239.21	560
41	847.29	241.47	538
42	847.45	243.74	539
43	847.61	246	516
44	847.77	248.26	500
45	847.94	250.53	487
46	848.1	252.79	489
47	848.26	255.05	487
48	848.42	257.31	485
49	848.59	259.56	484
50	848.75	261.82	486
51	848.91	264.08	507
52	849.07	266.33	509
53	849.24	268.58	513
54	849.4	270.84	515
55	849.56	273.09	506
56	849.72	275.34	500
57	849.89	277.59	494
58	850.05	279.84	488
59	850.21	282.09	485
60	850.37	284.33	491
61	850.54	286.58	498
62	850.7	288.82	493
63	850.86	291.07	484
64	851.02	293.31	486
65	851.19	295.55	483
66	851.35	297.79	477
67	851.51	300.03	482
68	851.67	302.27	478
69	851.84	304.51	470
70	852	306.74	470
71	852.16	308.98	483
72	852.32	311.22	482
73	852.49	313.45	468
74	852.65	315.68	479
75	852.81	317.91	483
76	852.97	320.14	478
77	853.13	322.37	480
78	853.3	324.6	484
79	853.46	326.83	491
80	853.62	329.06	489
81	853.78	331.28	489
82	853.95	333.51	486
83	854.11	335.73	484
84	854.27	337.96	486
85	854.43	340.18	491
86	854.59	342.4	498
87	854.76	344.62	493
88	854.92	346.84	497
89	855.08	349.05	490
90	855.24	351.27	508
91	855.41	353.49	500
92	855.57	355.7	489
93	855.73	357.92	499
94	855.89	360.13	520
95	856.05	362.34	510
96	856.22	364.55	507
97	856.38	366.76	523
98	856.54	368.97	513
99	856.7	371.18	510
100	856.86	373.39	514
101	857.03	375.59	524
102	857.19	377.8	529
103	857.35	380	529
104	857.51	382.2	524
105	857.67	384.41	537
106	857.84	386.61	550
107	858	388.81	534
108	858.16	391.01	534
109	858.32	393.2	533
110	858.48	395.4	554
111	858.64	397.6	556
112	858.81	399.79	555
113	858.97	401.99	563
114	859.13	404.18	572
115	859.29	406.37	579
116	859.45	408.56	569
117	859.62	410.75	582
118	859.78	412.94	580
119	859.94	415.13	581
120	860.1	417.32	579
121	860.26	419.5	568
122	860.42	421.69	565
123	860.59	423.87	576
124	860.75	426.06	569
125	860.91	428.24	582
126	861.07	430.42	563
127	861.23	432.6	564
128	861.4	434.78	560
129	861.56	436.96	570
130	861.72	439.13	574
131	861.88	441.31	565
132	862.04	443.49	567
133	862.2	445.66	573
134	862.36	447.83	578
135	862.53	450.01	563
136	862.69	452.18	572
137	862.85	454.35	556
138	863.01	456.52	563
139	863.17	458.69	572
140	863.33	460.85	571
141	863.5	463.02	574
142	863.66	465.19	575
143	863.82	467.35	571
144	863.98	469.51	557
145	864.14	471.68	572
146	864.3	473.84	561
147	864.46	476	571
148	864.63	478.16	563
149	864.79	480.32	565
150	864.95	482.47	558
151	865.11	484.63	577
152	865.27	486.79	574
153	865.43	488.94	567
154	865.59	491.1	574
155	865.76	493.25	574
156	865.92	495.4	573
157	866.08	497.55	580
158	866.24	499.7	583
159	866.4	501.85	572
160	866.56	504	591
161	866.72	506.14	592
162	866.88	508.29	586
163	867.05	510.43	596
164	867.21	512.58	588
165	867.37	514.72	607
166	867.53	516.86	605
167	867.69	519	606
168	867.85	521.14	610
169	868.01	523.28	625
170	868.17	525.42	628
171	868.33	527.56	630
172	868.5	529.69	654
173	868.66	531.83	648
174	868.82	533.96	659
175	868.98	536.1	666
176	869.14	538.23	656
177	869.3	540.36	666
178	869.46	542.49	683
179	869.62	544.62	665
180	869.78	546.75	675
181	869.95	548.88	668
182	870.11	551	669
183	870.27	553.13	662
184	870.43	555.25	666
185	870.59	557.37	655
186	870.75	559.5	650
187	870.91	561.62	664
188	871.07	563.74	652
189	871.23	565.86	656
190	871.39	567.98	660
191	871.55	570.09	674
192	871.71	572.21	657
193	871.88	574.33	661
194	872.04	576.44	660
195	872.2	578.55	642
196	872.36	580.67	653
197	872.52	582.78	647
198	872.68	584.89	654
199	872.84	587	660
200	873	589.11	663
201	873.16	591.22	663
202	873.32	593.32	657
203	873.48	595.43	654
204	873.64	597.53	661
205	873.8	599.64	671
206	873.96	601.74	664
207	874.12	603.84	666
208	874.29	605.94	663
209	874.45	608.04	679
210	874.61	610.14	690
211	874.77	612.24	699
212	874.93	614.34	727
213	875.09	616.43	769
214	875.25	618.53	861
215	875.41	620.62	973
216	875.57	622.72	1080
217	875.73	624.81	1085
218	875.89	626.9	983
219	876.05	628.99	852
220	876.21	631.08	799
221	876.37	633.17	751
222	876.53	635.26	727
223	876.69	637.34	724
224	876.85	639.43	703
225	877.01	641.51	704
226	877.17	643.6	708
227	877.33	645.68	706
228	877.49	647.76	701
229	877.65	649.84	699
230	877.81	651.92	698
231	877.97	654	671
232	878.13	656.08	677
233	878.29	658.15	679
234	878.45	660.23	683
235	878.61	662.3	673
236	878.78	664.38	660
237	878.94	666.45	667
238	879.1	668.52	672
239	879.26	670.59	681
240	879.42	672.66	677
241	879.58	674.73	678
242	879.74	676.8	681
243	879.9	678.87	683
244	880.06	680.93	676
245	880.22	683	690
246	880.38	685.06	689
247	880.54	687.13	683
248	880.7	689.19	681
249	880.86	691.25	694
250	881.02	693.31	703
251	881.17	695.37	686
252	881.33	697.43	698
253	881.49	699.49	714
254	881.65	701.54	699
255	881.81	703.6	696
256	881.97	705.65	730
257	882.13	707.71	719
258	882.29	709.76	723
259	882.45	711.81	734
260	882.61	713.86	719
261	882.77	715.91	719
262	882.93	717.96	730
263	883.09	720.01	723
264	883.25	722.05	721
265	883.41	724.1	717
266	883.57	726.15	727
267	883.73	728.19	730
268	883.89	730.23	725
269	884.05	732.28	730
270	884.21	734.32	731
271	884.37	736.36	752
272	884.53	738.4	756
273	884.69	740.43	771
274	884.85	742.47	767
275	885.01	744.51	792
276	885.17	746.54	793
277	885.33	748.58	807
278	885.49	750.61	807
279	885.64	752.64	808
280	885.8	754.67	818
281	885.96	756.71	842
282	886.12	758.74	846
283	886.28	760.76	846
284	886.44	762.79	858
285	886.6	764.82	874
286	886.76	766.84	869
287	886.92	768.87	867
288	887.08	770.89	871
289	887.24	772.92	871
290	887.4	774.94	868
291	887.56	776.96	873
292	887.72	778.98	863
293	887.87	781	889
294	888.03	783.02	909
295	888.19	785.03	923
296	888.35	787.05	943
297	888.51	789.07	933
298	888.67	791.08	948
299	888.83	793.09	975
300	888.99	795.11	995
301	889.15	797.12	993
302	889.31	799.13	1013
303	889.46	801.14	1003
304	889.62	803.15	989
305	889.78	805.15	951
306	889.94	807.16	927
307	890.1	809.17	921
308	890.26	811.17	883
309	890.42	813.17	868
310	890.58	815.18	857
311	890.74	817.18	828
312	890.89	819.18	820
313	891.05	821.18	807
314	891.21	823.18	832
315	891.37	825.18	794
316	891.53	827.17	791
317	891.69	829.17	802
318	891.85	831.17	784
319	892.01	833.16	814
320	892.16	835.15	802
321	892.32	837.15	813
322	892.48	839.14	828
323	892.64	841.13	822
324	892.8	843.12	826
325	892.96	845.11	820
326	893.12	847.09	820
327	893.27	849.08	841
328	893.43	851.07	822
329	893.59	853.05	815
330	893.75	855.04	806
331	893.91	857.02	816
332	894.07	859	813
333	894.22	860.98	807
334	894.38	862.96	819
335	894.54	864.94	800
336	894.7	866.92	809
337	894.86	868.9	821
338	895.02	870.87	815
339	895.17	872.85	821
340	895.33	874.82	819
341	895.49	876.8	833
342	895.65	878.77	820
343	895.81	880.74	815
344	895.97	882.71	804
345	896.12	884.68	838
346	896.28	886.65	812
347	896.44	888.62	800
348	896.6	890.59	815
349	896.76	892.55	808
350	896.91	894.52	815
351	897.07	896.48	818
352	897.23	898.44	819
353	897.39	900.41	828
354	897.55	902.37	829
355	897.7	904.33	851
356	897.86	906.29	866
357	898.02	908.24	869
358	898.18	910.2	850
359	898.34	912.16	849
360	898.49	914.11	854
361	898.65	916.07	817
362	898.81	918.02	825
363	898.97	919.98	814
364	899.12	921.93	812
365	899.28	923.88	816
366	899.44	925.83	809
367	899.6	927.78	816
368	899.76	929.73	795
369	899.91	931.67	813
370	900.07	933.62	815
371	900.23	935.56	809
372	900.39	937.51	814
373	900.54	939.45	807
374	900.7	941.39	835
375	900.86	943.34	792
376	901.02	945.28	819
377	901.17	947.22	802
378	901.33	949.15	805
379	901.49	951.09	827
380	901.65	953.03	823
381	901.8	954.96	811
382	901.96	956.9	829
383	902.12	958.83	837
384	902.28	960.77	812
385	902.43	962.7	814
386	902.59	964.63	818
387	902.75	966.56	813
388	902.9	968.49	834
389	903.06	970.42	827
390	903.22	972.34	825
391	903.38	974.27	832
392	903.53	976.2	841
393	903.69	978.12	830
394	903.85	980.05	854
395	904	981.97	858
396	904.16	983.89	870
397	904.32	985.81	880
398	904.48	987.73	911
399	904.63	989.65	938
400	904.79	991.57	962
401	904.95	993.48	1018
402	905.1	995.4	1069
403	905.26	997.32	1142
404	905.42	999.23	1325
405	905.57	1001.1	1751
406	905.73	1003.1	2448
407	905.89	1005	3038
408	906.05	1006.9	3125
409	906.2	1008.8	2621
410	906.36	1010.7	1943
411	906.52	1012.6	1543
412	906.67	1014.5	1227
413	906.83	1016.4	1111
414	906.99	1018.3	1039
415	907.14	1020.2	986
416	907.3	1022.1	981
417	907.46	1024	968
418	907.61	1025.9	983
419	907.77	1027.8	1042
420	907.93	1029.7	1119
421	908.08	1031.6	1275
422	908.24	1033.5	1375
423	908.39	1035.4	1477
424	908.55	1037.3	1462
425	908.71	1039.2	1417
426	908.86	1041.1	1295
427	909.02	1043	1192
428	909.18	1044.9	1098
429	909.33	1046.8	1029
430	909.49	1048.7	1003
431	909.65	1050.6	972
432	909.8	1052.5	946
433	909.96	1054.3	936
434	910.11	1056.2	922
435	910.27	1058.1	922
436	910.43	1060	919
437	910.58	1061.9	903
438	910.74	1063.8	916
439	910.9	1065.6	914
440	911.05	1067.5	915
441	911.21	1069.4	950
442	911.36	1071.3	937
443	911.52	1073.2	933
444	911.68	1075	943
445	911.83	1076.9	956
446	911.99	1078.8	932
447	912.14	1080.7	944
448	912.3	1082.5	934
449	912.46	1084.4	922
450	912.61	1086.3	915
451	912.77	1088.2	919
452	912.92	1090	907
453	913.08	1091.9	901
454	913.23	1093.8	918
455	913.39	1095.6	917
456	913.55	1097.5	908
457	913.7	1099.4	910
458	913.86	1101.2	914
459	914.01	1103.1	905
460	914.17	1105	907
461	914.32	1106.8	899
462	914.48	1108.7	889
463	914.64	1110.5	862
464	914.79	1112.4	865
465	914.95	1114.2	843
466	915.1	1116.1	835
467	915.26	1118	859
468	915.41	1119.8	834
469	915.57	1121.7	822
470	915.72	1123.5	838
471	915.88	1125.4	824
472	916.03	1127.2	811
473	916.19	1129.1	800
474	916.34	1130.9	806
475	916.5	1132.8	802
476	916.65	1134.6	798
477	916.81	1136.5	810
478	916.97	1138.3	803
479	917.12	1140.2	821
480	917.28	1142	795
481	917.43	1143.8	802
482	917.59	1145.7	823
483	917.74	1147.5	834
484	917.9	1149.4	817
485	918.05	1151.2	831
486	918.21	1153.1	857
487	918.36	1154.9	896
488	918.52	1156.7	923
489	918.67	1158.6	1004
490	918.83	1160.4	1039
491	918.98	1162.2	1057
492	919.14	1164.1	1039
493	919.29	1165.9	996
494	919.44	1167.7	939
495	919.6	1169.6	933
496	919.75	1171.4	909
497	919.91	1173.2	897
498	920.06	1175	903
499	920.22	1176.9	911
500	920.37	1178.7	913
501	920.53	1180.5	929
502	920.68	1182.3	975
503	920.84	1184.2	1028
504	920.99	1186	1079
505	921.15	1187.8	1110
506	921.3	1189.6	1134
507	921.45	1191.4	1079
508	921.61	1193.3	1104
509	921.76	1195.1	1052
510	921.92	1196.9	1037
511	922.07	1198.7	1046
512	922.23	1200.5	1056
513	922.38	1202.3	1061
514	922.54	1204.2	1064
515	922.69	1206	1057
516	922.84	1207.8	1054
517	923	1209.6	1050
518	923.15	1211.4	1028
519	923.31	1213.2	1018
520	923.46	1215	989
521	923.61	1216.8	960
522	923.77	1218.6	938
523	923.92	1220.4	913
524	924.08	1222.2	890
525	924.23	1224	877
526	924.38	1225.8	877
527	924.54	1227.6	874
528	924.69	1229.4	859
529	924.85	1231.2	874
530	925	1233	868
531	925.15	1234.8	887
532	925.31	1236.6	859
533	925.46	1238.4	863
534	925.61	1240.2	858
535	925.77	1242	860
536	925.92	1243.8	867
537	926.08	1245.6	843
538	926.23	1247.4	848
539	926.38	1249.2	842
540	926.54	1251	823
541	926.69	1252.8	833
542	926.84	1254.6	824
543	927	1256.3	823
544	927.15	1258.1	811
545	927.3	1259.9	807
546	927.46	1261.7	825
547	927.61	1263.5	811
548	927.76	1265.3	814
549	927.92	1267	824
550	928.07	1268.8	818
551	928.22	1270.6	809
552	928.38	1272.4	810
553	928.53	1274.2	819
554	928.68	1275.9	828
555	928.84	1277.7	835
556	928.99	1279.5	827
557	929.14	1281.3	836
558	929.3	1283	815
559	929.45	1284.8	840
560	929.6	1286.6	828
561	929.76	1288.3	849
562	929.91	1290.1	844
563	930.06	1291.9	839
564	930.21	1293.6	842
565	930.37	1295.4	860
566	930.52	1297.2	840
567	930.67	1298.9	838
568	930.83	1300.7	841
569	930.98	1302.5	852
570	931.13	1304.2	844
571	931.28	1306	850
572	931.44	1307.8	846
573	931.59	1309.5	886
574	931.74	1311.3	866
575	931.9	1313	870
576	932.05	1314.8	855
577	932.2	1316.5	871
578	932.35	1318.3	879
579	932.51	1320.1	881
580	932.66	1321.8	882
581	932.81	1323.6	882
582	932.96	1325.3	882
583	933.11	1327.1	897
584	933.27	1328.8	899
585	933.42	1330.6	900
586	933.57	1332.3	904
587	933.72	1334.1	900
588	933.88	1335.8	906
589	934.03	1337.5	902
590	934.18	1339.3	898
591	934.33	1341	900
592	934.49	1342.8	889
593	934.64	1344.5	898
594	934.79	1346.3	872
595	934.94	1348	847
596	935.09	1349.7	856
597	935.25	1351.5	855
598	935.4	1353.2	840
599	935.55	1354.9	828
600	935.7	1356.7	832
601	935.85	1358.4	824
602	936.01	1360.2	824
603	936.16	1361.9	821
604	936.31	1363.6	805
605	936.46	1365.3	820
606	936.61	1367.1	808
607	936.76	1368.8	807
608	936.92	1370.5	810
609	937.07	1372.3	797
610	937.22	1374	812
611	937.37	1375.7	811
612	937.52	1377.4	801
613	937.67	1379.2	813
614	937.83	1380.9	805
615	937.98	1382.6	795
616	938.13	1384.3	794
617	938.28	1386	798
618	938.43	1387.8	791
619	938.58	1389.5	791
620	938.73	1391.2	778
621	938.88	1392.9	778
622	939.04	1394.6	766
623	939.19	1396.3	766
624	939.34	1398.1	753
625	939.49	1399.8	762
626	939.64	1401.5	754
627	939.79	1403.2	768
628	939.94	1404.9	761
629	940.09	1406.6	745
630	940.25	1408.3	755
631	940.4	1410	750
632	940.55	1411.7	751
633	940.7	1413.4	757
634	940.85	1415.2	755
635	941	1416.9	757
636	941.15	1418.6	748
637	941.3	1420.3	759
638	941.45	1422	736
639	941.6	1423.7	749
640	941.75	1425.4	746
641	941.9	1427.1	738
642	942.06	1428.8	739
643	942.21	1430.5	758
644	942.36	1432.2	737
645	942.51	1433.9	744
646	942.66	1435.5	741
647	942.81	1437.2	747
648	942.96	1438.9	749
649	943.11	1440.6	729
650	943.26	1442.3	744
651	943.41	1444	747
652	943.56	1445.7	752
653	943.71	1447.4	747
654	943.86	1449.1	772
655	944.01	1450.8	790
656	944.16	1452.4	789
657	944.31	1454.1	809
658	944.46	1455.8	819
659	944.61	1457.5	835
660	944.76	1459.2	833
661	944.91	1460.9	854
662	945.06	1462.5	867
663	945.21	1464.2	826
664	945.36	1465.9	835
665	945.51	1467.6	819
666	945.66	1469.2	798
667	945.81	1470.9	784
668	945.96	1472.6	764
669	946.11	1474.3	747
670	946.26	1475.9	729
671	946.41	1477.6	721
672	946.56	1479.3	723
673	946.71	1481	723
674	946.86	1482.6	700
675	947.01	1484.3	715
676	947.16	1486	715
677	947.31	1487.6	702
678	947.46	1489.3	697
679	947.61	1491	692
680	947.76	1492.6	704
681	947.91	1494.3	704
682	948.06	1496	692
683	948.21	1497.6	693
684	948.36	1499.3	682
685	948.5	1500.9	689
686	948.65	1502.6	688
687	948.8	1504.3	700
688	948.95	1505.9	699
689	949.1	1507.6	699
690	949.25	1509.2	686
691	949.4	1510.9	680
692	949.55	1512.5	697
693	949.7	1514.2	698
694	949.85	1515.8	690
695	950	1517.5	699
696	950.14	1519.1	696
697	950.29	1520.8	682
698	950.44	1522.4	679
699	950.59	1524.1	691
700	950.74	1525.7	687
701	950.89	1527.4	704
702	951.04	1529	688
703	951.19	1530.7	694
704	951.34	1532.3	706
705	951.48	1534	691
706	951.63	1535.6	691
707	951.78	1537.2	699
708	951.93	1538.9	674
709	952.08	1540.5	692
710	952.23	1542.2	698
711	952.38	1543.8	691
712	952.52	1545.4	686
713	952.67	1547.1	698
714	952.82	1548.7	685
715	952.97	1550.3	690
716	953.12	1552	693
717	953.27	1553.6	703
718	953.41	1555.2	691
719	953.56	1556.9	685
720	953.71	1558.5	669
721	953.86	1560.1	687
722	954.01	1561.7	680
723	954.15	1563.4	681
724	954.3	1565	688
725	954.45	1566.6	675
726	954.6	1568.2	683
727	954.75	1569.9	674
728	954.89	1571.5	676
729	955.04	1573.1	675
730	955.19	1574.7	692
731	955.34	1576.4	664
732	955.49	1578	675
733	955.63	1579.6	682
734	955.78	1581.2	695
735	955.93	1582.8	686
736	956.08	1584.4	689
737	956.22	1586.1	678
738	956.37	1587.7	683
739	956.52	1589.3	688
740	956.67	1590.9	709
741	956.81	1592.5	687
742	956.96	1594.1	732
743	957.11	1595.7	734
744	957.26	1597.3	779
745	957.4	1598.9	822
746	957.55	1600.6	840
747	957.7	1602.2	823
748	957.85	1603.8	796
749	957.99	1605.4	786
750	958.14	1607	778
751	958.29	1608.6	747
752	958.43	1610.2	766
753	958.58	1611.8	781
754	958.73	1613.4	813
755	958.88	1615	856
756	959.02	1616.6	930
757	959.17	1618.2	995
758	959.32	1619.8	1022
759	959.46	1621.4	1045
760	959.61	1623	997
761	959.76	1624.6	957
762	959.9	1626.1	913
763	960.05	1627.7	856
764	960.2	1629.3	810
765	960.34	1630.9	773
766	960.49	1632.5	753
767	960.64	1634.1	731
768	960.78	1635.7	697
769	960.93	1637.3	714
770	961.08	1638.9	690
771	961.22	1640.4	689
772	961.37	1642	684
773	961.52	1643.6	679
774	961.66	1645.2	672
775	961.81	1646.8	701
776	961.96	1648.4	686
777	962.1	1649.9	683
778	962.25	1651.5	697
779	962.39	1653.1	678
780	962.54	1654.7	662
781	962.69	1656.3	651
782	962.83	1657.8	641
783	962.98	1659.4	645
784	963.12	1661	645
785	963.27	1662.5	635
786	963.42	1664.1	620
787	963.56	1665.7	638
788	963.71	1667.3	627
789	963.85	1668.8	626
790	964	1670.4	624
791	964.15	1672	624
792	964.29	1673.5	620
793	964.44	1675.1	619
794	964.58	1676.7	615
795	964.73	1678.2	618
796	964.87	1679.8	618
797	965.02	1681.4	618
798	965.16	1682.9	611
799	965.31	1684.5	615
800	965.46	1686	605
801	965.6	1687.6	607
802	965.75	1689.2	607
803	965.89	1690.7	621
804	966.04	1692.3	603
805	966.18	1693.8	621
806	966.33	1695.4	595
807	966.47	1696.9	611
808	966.62	1698.5	608
809	966.76	1700.1	601
810	966.91	1701.6	606
811	967.05	1703.2	604
812	967.2	1704.7	607
813	967.34	1706.3	613
814	967.49	1707.8	603
815	967.63	1709.4	605
816	967.78	1710.9	592
817	967.92	1712.4	594
818	968.07	1714	586
819	968.21	1715.5	596
820	968.36	1717.1	595
821	968.5	1718.6	591
822	968.65	1720.2	584
823	968.79	1721.7	583
824	968.93	1723.2	592
825	969.08	1724.8	598
826	969.22	1726.3	593
827	969.37	1727.9	580
828	969.51	1729.4	579
829	969.66	1730.9	589
830	969.8	1732.5	589
831	969.95	1734	593
832	970.09	1735.5	580
833	970.23	1737.1	585
834	970.38	1738.6	569
835	970.52	1740.1	584
836	970.67	1741.7	583
837	970.81	1743.2	573
838	970.95	1744.7	582
839	971.1	1746.2	588
840	971.24	1747.8	592
841	971.39	1749.3	580
842	971.53	1750.8	564
843	971.67	1752.3	572
844	971.82	1753.9	576
845	971.96	1755.4	572
846	972.11	1756.9	572
847	972.25	1758.4	577
848	972.39	1759.9	563
849	972.54	1761.5	570
850	972.68	1763	578
851	972.82	1764.5	559
852	972.97	1766	558
853	973.11	1767.5	568
854	973.25	1769	551
855	973.4	1770.6	551
856	973.54	1772.1	564
857	973.68	1773.6	564
858	973.83	1775.1	560
859	973.97	1776.6	559
860	974.11	1778.1	561
861	974.26	1779.6	559
862	974.4	1781.1	559
863	974.54	1782.6	569
864	974.69	1784.1	549
865	974.83	1785.7	564
866	974.97	1787.2	557
867	975.12	1788.7	574
868	975.26	1790.2	570
869	975.4	1791.7	573
870	975.54	1793.2	561
871	975.69	1794.7	566
872	975.83	1796.2	561
873	975.97	1797.7	563
874	976.12	1799.2	540
875	976.26	1800.7	560
876	976.4	1802.2	572
877	976.54	1803.6	549
878	976.69	1805.1	555
879	976.83	1806.6	558
880	976.97	1808.1	550
881	977.11	1809.6	554
882	977.26	1811.1	551
883	977.4	1812.6	554
884	977.54	1814.1	542
885	977.68	1815.6	557
886	977.82	1817.1	535
887	977.97	1818.6	544
888	978.11	1820	555
889	978.25	1821.5	549
890	978.39	1823	532
891	978.53	1824.5	550
892	978.68	1826	540
893	978.82	1827.5	536
894	978.96	1828.9	536
895	979.1	1830.4	532
896	979.24	1831.9	529
897	979.39	1833.4	547
898	979.53	1834.9	548
899	979.67	1836.3	532
900	979.81	1837.8	531
901	979.95	1839.3	534
902	980.09	1840.8	530
903	980.24	1842.2	535
904	980.38	1843.7	533
905	980.52	1845.2	531
906	980.66	1846.6	528
907	980.8	1848.1	527
908	980.94	1849.6	516
909	981.08	1851	524
910	981.23	1852.5	531
911	981.37	1854	523
912	981.51	1855.4	518
913	981.65	1856.9	524
914	981.79	1858.4	525
915	981.93	1859.8	526
916	982.07	1861.3	533
917	982.21	1862.8	532
918	982.35	1864.2	517
919	982.5	1865.7	517
920	982.64	1867.1	518
921	982.78	1868.6	527
922	982.92	1870.1	518
923	983.06	1871.5	516
924	983.2	1873	519
925	983.34	1874.4	519
926	983.48	1875.9	523
927	983.62	1877.3	513
928	983.76	1878.8	518
929	983.9	1880.2	518
930	984.04	1881.7	525
931	984.18	1883.1	514
932	984.32	1884.6	512
933	984.46	1886	516
934	984.6	1887.5	514
935	984.74	1888.9	514
936	984.88	1890.4	501
937	985.02	1891.8	503
938	985.16	1893.3	517
939	985.3	1894.7	514
940	985.45	1896.2	512
941	985.59	1897.6	502
942	985.73	1899	515
943	985.86	1900.5	509
944	986	1901.9	510
945	986.14	1903.4	502
946	986.28	1904.8	512
947	986.42	1906.2	522
948	986.56	1907.7	510
949	986.7	1909.1	500
950	986.84	1910.5	498
951	986.98	1912	503
952	987.12	1913.4	505
953	987.26	1914.8	501
954	987.4	1916.3	502
955	987.54	1917.7	494
956	987.68	1919.1	462
957	987.82	1920.6	507
958	987.96	1922	504
959	988.1	1923.4	496
960	988.24	1924.8	503
961	988.38	1926.3	493
962	988.52	1927.7	496
963	988.66	1929.1	489
964	988.79	1930.5	497
965	988.93	1931.9	491
966	989.07	1933.4	487
967	989.21	1934.8	492
968	989.35	1936.2	499
969	989.49	1937.6	508
970	989.63	1939	500
971	989.77	1940.5	489
972	989.91	1941.9	491
973	990.04	1943.3	495
974	990.18	1944.7	486
975	990.32	1946.1	486
976	990.46	1947.5	484
977	990.6	1948.9	481
978	990.74	1950.4	488
979	990.88	1951.8	481
980	991.01	1953.2	480
981	991.15	1954.6	483
982	991.29	1956	480
983	991.43	1957.4	486
984	991.57	1958.8	470
985	991.71	1960.2	471
986	991.84	1961.6	484
987	991.98	1963	481
988	992.12	1964.4	478
989	992.26	1965.8	463
990	992.4	1967.2	464
991	992.53	1968.6	477
992	992.67	1970	467
993	992.81	1971.4	473
994	992.95	1972.8	475
995	993.08	1974.2	462
996	993.22	1975.6	471
997	993.36	1977	467
998	993.5	1978.4	468
999	993.64	1979.8	469
1000	993.77	1981.2	471
1001	993.91	1982.6	475
1002	994.05	1984	457
1003	994.19	1985.4	469
1004	994.32	1986.8	468
1005	994.46	1988.1	458
1006	994.6	1989.5	463
1007	994.73	1990.9	467
1008	994.87	1992.3	467
1009	995.01	1993.7	463
1010	995.15	1995.1	465
1011	995.28	1996.5	458
1012	995.42	1997.8	459
1013	995.56	1999.2	462
1014	995.69	2000.6	456
1015	995.83	2002	470
1016	995.97	2003.4	460
1017	996.1	2004.7	451
1018	996.24	2006.1	451
1019	996.38	2007.5	454
1020	996.51	2008.9	444
1021	996.65	2010.3	450
1022	996.79	2011.6	452
1023	996.92	2013	456
1024	997.06	2014.4	458
