Date: 2-26-2020    Time: 15:41:51
Integration time per accumulation is 10 sec.
File for binning: <none>
Shutter Mode:  Auto
Cosmic Ray Removal: no
Sum Frames: no
File for bkgd subtraction: <no background>
File for white light calibration: <no wl correction>
Savitsky-Golay Smooth: no
CCD temperature: -60 Celsius
Comment: <no comment>
Tune Laser: Off
Data mode:  Spectrum mode.  Full Vertical Bin
Number of accumulations per frame: 1
Number of frames: 1
Total seconds of CCD data acquisition: 10
Number of xpixels: 1024
Number of tracks per frame: 1
Calibration File: C:\CCD\Jason\Controller\Calibration\SpectralCalibration\Calibration Data\Calibration_7-27-10b.asc
Track shifts: 0
1	840.77	150.06	349
2	840.94	152.37	351
3	841.1	154.67	349
4	841.26	156.97	350
5	841.43	159.27	349
6	841.59	161.58	351
7	841.75	163.88	349
8	841.92	166.17	355
9	842.08	168.47	347
10	842.24	170.77	354
11	842.4	173.06	362
12	842.57	175.36	364
13	842.73	177.65	379
14	842.89	179.95	387
15	843.06	182.24	378
16	843.22	184.53	377
17	843.38	186.82	377
18	843.54	189.11	378
19	843.71	191.4	388
20	843.87	193.68	389
21	844.03	195.97	401
22	844.2	198.25	392
23	844.36	200.54	391
24	844.52	202.82	396
25	844.68	205.1	403
26	844.85	207.38	392
27	845.01	209.66	393
28	845.17	211.94	394
29	845.33	214.22	401
30	845.5	216.49	402
31	845.66	218.77	394
32	845.82	221.05	397
33	845.99	223.32	397
34	846.15	225.59	397
35	846.31	227.86	395
36	846.47	230.13	399
37	846.64	232.4	409
38	846.8	234.67	409
39	846.96	236.94	409
40	847.12	239.21	403
41	847.29	241.47	417
42	847.45	243.74	417
43	847.61	246	406
44	847.77	248.26	414
45	847.94	250.53	414
46	848.1	252.79	410
47	848.26	255.05	408
48	848.42	257.31	414
49	848.59	259.56	426
50	848.75	261.82	439
51	848.91	264.08	439
52	849.07	266.33	451
53	849.24	268.58	456
54	849.4	270.84	455
55	849.56	273.09	442
56	849.72	275.34	423
57	849.89	277.59	423
58	850.05	279.84	424
59	850.21	282.09	424
60	850.37	284.33	441
61	850.54	286.58	430
62	850.7	288.82	429
63	850.86	291.07	432
64	851.02	293.31	436
65	851.19	295.55	433
66	851.35	297.79	440
67	851.51	300.03	421
68	851.67	302.27	430
69	851.84	304.51	430
70	852	306.74	429
71	852.16	308.98	446
72	852.32	311.22	435
73	852.49	313.45	452
74	852.65	315.68	439
75	852.81	317.91	446
76	852.97	320.14	460
77	853.13	322.37	458
78	853.3	324.6	453
79	853.46	326.83	450
80	853.62	329.06	446
81	853.78	331.28	452
82	853.95	333.51	455
83	854.11	335.73	444
84	854.27	337.96	450
85	854.43	340.18	456
86	854.59	342.4	450
87	854.76	344.62	453
88	854.92	346.84	464
89	855.08	349.05	452
90	855.24	351.27	464
91	855.41	353.49	468
92	855.57	355.7	462
93	855.73	357.92	461
94	855.89	360.13	458
95	856.05	362.34	463
96	856.22	364.55	459
97	856.38	366.76	474
98	856.54	368.97	471
99	856.7	371.18	470
100	856.86	373.39	462
101	857.03	375.59	470
102	857.19	377.8	473
103	857.35	380	477
104	857.51	382.2	473
105	857.67	384.41	479
106	857.84	386.61	489
107	858	388.81	483
108	858.16	391.01	476
109	858.32	393.2	474
110	858.48	395.4	489
111	858.64	397.6	489
112	858.81	399.79	486
113	858.97	401.99	488
114	859.13	404.18	484
115	859.29	406.37	486
116	859.45	408.56	476
117	859.62	410.75	490
118	859.78	412.94	482
119	859.94	415.13	492
120	860.1	417.32	487
121	860.26	419.5	500
122	860.42	421.69	497
123	860.59	423.87	498
124	860.75	426.06	501
125	860.91	428.24	489
126	861.07	430.42	488
127	861.23	432.6	498
128	861.4	434.78	500
129	861.56	436.96	497
130	861.72	439.13	511
131	861.88	441.31	499
132	862.04	443.49	491
133	862.2	445.66	498
134	862.36	447.83	503
135	862.53	450.01	504
136	862.69	452.18	502
137	862.85	454.35	509
138	863.01	456.52	508
139	863.17	458.69	509
140	863.33	460.85	501
141	863.5	463.02	518
142	863.66	465.19	515
143	863.82	467.35	498
144	863.98	469.51	501
145	864.14	471.68	518
146	864.3	473.84	510
147	864.46	476	516
148	864.63	478.16	505
149	864.79	480.32	506
150	864.95	482.47	518
151	865.11	484.63	515
152	865.27	486.79	517
153	865.43	488.94	517
154	865.59	491.1	517
155	865.76	493.25	528
156	865.92	495.4	509
157	866.08	497.55	530
158	866.24	499.7	522
159	866.4	501.85	513
160	866.56	504	522
161	866.72	506.14	523
162	866.88	508.29	525
163	867.05	510.43	518
164	867.21	512.58	531
165	867.37	514.72	519
166	867.53	516.86	534
167	867.69	519	537
168	867.85	521.14	531
169	868.01	523.28	521
170	868.17	525.42	522
171	868.33	527.56	526
172	868.5	529.69	521
173	868.66	531.83	530
174	868.82	533.96	529
175	868.98	536.1	530
176	869.14	538.23	544
177	869.3	540.36	528
178	869.46	542.49	534
179	869.62	544.62	539
180	869.78	546.75	528
181	869.95	548.88	532
182	870.11	551	533
183	870.27	553.13	536
184	870.43	555.25	540
185	870.59	557.37	544
186	870.75	559.5	539
187	870.91	561.62	532
188	871.07	563.74	523
189	871.23	565.86	545
190	871.39	567.98	531
191	871.55	570.09	533
192	871.71	572.21	537
193	871.88	574.33	539
194	872.04	576.44	538
195	872.2	578.55	549
196	872.36	580.67	541
197	872.52	582.78	537
198	872.68	584.89	540
199	872.84	587	533
200	873	589.11	551
201	873.16	591.22	549
202	873.32	593.32	548
203	873.48	595.43	551
204	873.64	597.53	545
205	873.8	599.64	557
206	873.96	601.74	552
207	874.12	603.84	540
208	874.29	605.94	553
209	874.45	608.04	551
210	874.61	610.14	546
211	874.77	612.24	554
212	874.93	614.34	553
213	875.09	616.43	553
214	875.25	618.53	545
215	875.41	620.62	555
216	875.57	622.72	551
217	875.73	624.81	542
218	875.89	626.9	566
219	876.05	628.99	554
220	876.21	631.08	551
221	876.37	633.17	561
222	876.53	635.26	558
223	876.69	637.34	566
224	876.85	639.43	562
225	877.01	641.51	563
226	877.17	643.6	556
227	877.33	645.68	569
228	877.49	647.76	551
229	877.65	649.84	575
230	877.81	651.92	569
231	877.97	654	563
232	878.13	656.08	557
233	878.29	658.15	574
234	878.45	660.23	562
235	878.61	662.3	566
236	878.78	664.38	565
237	878.94	666.45	563
238	879.1	668.52	563
239	879.26	670.59	562
240	879.42	672.66	573
241	879.58	674.73	584
242	879.74	676.8	576
243	879.9	678.87	568
244	880.06	680.93	562
245	880.22	683	568
246	880.38	685.06	561
247	880.54	687.13	575
248	880.7	689.19	576
249	880.86	691.25	561
250	881.02	693.31	563
251	881.17	695.37	562
252	881.33	697.43	581
253	881.49	699.49	582
254	881.65	701.54	570
255	881.81	703.6	573
256	881.97	705.65	567
257	882.13	707.71	569
258	882.29	709.76	587
259	882.45	711.81	584
260	882.61	713.86	580
261	882.77	715.91	576
262	882.93	717.96	582
263	883.09	720.01	578
264	883.25	722.05	576
265	883.41	724.1	580
266	883.57	726.15	579
267	883.73	728.19	578
268	883.89	730.23	581
269	884.05	732.28	586
270	884.21	734.32	582
271	884.37	736.36	583
272	884.53	738.4	592
273	884.69	740.43	594
274	884.85	742.47	573
275	885.01	744.51	569
276	885.17	746.54	554
277	885.33	748.58	562
278	885.49	750.61	563
279	885.64	752.64	577
280	885.8	754.67	590
281	885.96	756.71	592
282	886.12	758.74	584
283	886.28	760.76	590
284	886.44	762.79	582
285	886.6	764.82	602
286	886.76	766.84	589
287	886.92	768.87	594
288	887.08	770.89	599
289	887.24	772.92	586
290	887.4	774.94	588
291	887.56	776.96	592
292	887.72	778.98	595
293	887.87	781	588
294	888.03	783.02	587
295	888.19	785.03	590
296	888.35	787.05	604
297	888.51	789.07	599
298	888.67	791.08	608
299	888.83	793.09	608
300	888.99	795.11	599
301	889.15	797.12	599
302	889.31	799.13	598
303	889.46	801.14	595
304	889.62	803.15	610
305	889.78	805.15	593
306	889.94	807.16	599
307	890.1	809.17	601
308	890.26	811.17	601
309	890.42	813.17	600
310	890.58	815.18	620
311	890.74	817.18	599
312	890.89	819.18	593
313	891.05	821.18	601
314	891.21	823.18	606
315	891.37	825.18	598
316	891.53	827.17	593
317	891.69	829.17	599
318	891.85	831.17	595
319	892.01	833.16	597
320	892.16	835.15	589
321	892.32	837.15	596
322	892.48	839.14	595
323	892.64	841.13	602
324	892.8	843.12	584
325	892.96	845.11	568
326	893.12	847.09	571
327	893.27	849.08	596
328	893.43	851.07	595
329	893.59	853.05	606
330	893.75	855.04	607
331	893.91	857.02	595
332	894.07	859	609
333	894.22	860.98	611
334	894.38	862.96	615
335	894.54	864.94	607
336	894.7	866.92	614
337	894.86	868.9	602
338	895.02	870.87	603
339	895.17	872.85	618
340	895.33	874.82	619
341	895.49	876.8	602
342	895.65	878.77	615
343	895.81	880.74	608
344	895.97	882.71	617
345	896.12	884.68	590
346	896.28	886.65	601
347	896.44	888.62	601
348	896.6	890.59	610
349	896.76	892.55	621
350	896.91	894.52	613
351	897.07	896.48	614
352	897.23	898.44	621
353	897.39	900.41	609
354	897.55	902.37	612
355	897.7	904.33	608
356	897.86	906.29	609
357	898.02	908.24	603
358	898.18	910.2	611
359	898.34	912.16	616
360	898.49	914.11	605
361	898.65	916.07	618
362	898.81	918.02	601
363	898.97	919.98	599
364	899.12	921.93	605
365	899.28	923.88	604
366	899.44	925.83	606
367	899.6	927.78	602
368	899.76	929.73	605
369	899.91	931.67	604
370	900.07	933.62	610
371	900.23	935.56	602
372	900.39	937.51	623
373	900.54	939.45	598
374	900.7	941.39	599
375	900.86	943.34	605
376	901.02	945.28	604
377	901.17	947.22	606
378	901.33	949.15	593
379	901.49	951.09	609
380	901.65	953.03	607
381	901.8	954.96	609
382	901.96	956.9	615
383	902.12	958.83	602
384	902.28	960.77	592
385	902.43	962.7	613
386	902.59	964.63	618
387	902.75	966.56	595
388	902.9	968.49	599
389	903.06	970.42	612
390	903.22	972.34	596
391	903.38	974.27	598
392	903.53	976.2	607
393	903.69	978.12	603
394	903.85	980.05	602
395	904	981.97	611
396	904.16	983.89	607
397	904.32	985.81	615
398	904.48	987.73	606
399	904.63	989.65	617
400	904.79	991.57	610
401	904.95	993.48	611
402	905.1	995.4	612
403	905.26	997.32	610
404	905.42	999.23	612
405	905.57	1001.1	605
406	905.73	1003.1	607
407	905.89	1005	605
408	906.05	1006.9	610
409	906.2	1008.8	612
410	906.36	1010.7	595
411	906.52	1012.6	602
412	906.67	1014.5	596
413	906.83	1016.4	606
414	906.99	1018.3	594
415	907.14	1020.2	613
416	907.3	1022.1	602
417	907.46	1024	603
418	907.61	1025.9	599
419	907.77	1027.8	597
420	907.93	1029.7	583
421	908.08	1031.6	592
422	908.24	1033.5	604
423	908.39	1035.4	602
424	908.55	1037.3	604
425	908.71	1039.2	601
426	908.86	1041.1	599
427	909.02	1043	615
428	909.18	1044.9	592
429	909.33	1046.8	593
430	909.49	1048.7	614
431	909.65	1050.6	602
432	909.8	1052.5	596
433	909.96	1054.3	603
434	910.11	1056.2	597
435	910.27	1058.1	612
436	910.43	1060	605
437	910.58	1061.9	594
438	910.74	1063.8	589
439	910.9	1065.6	607
440	911.05	1067.5	602
441	911.21	1069.4	595
442	911.36	1071.3	596
443	911.52	1073.2	593
444	911.68	1075	587
445	911.83	1076.9	598
446	911.99	1078.8	589
447	912.14	1080.7	596
448	912.3	1082.5	598
449	912.46	1084.4	608
450	912.61	1086.3	595
451	912.77	1088.2	594
452	912.92	1090	586
453	913.08	1091.9	590
454	913.23	1093.8	604
455	913.39	1095.6	593
456	913.55	1097.5	590
457	913.7	1099.4	597
458	913.86	1101.2	593
459	914.01	1103.1	586
460	914.17	1105	591
461	914.32	1106.8	594
462	914.48	1108.7	582
463	914.64	1110.5	592
464	914.79	1112.4	577
465	914.95	1114.2	587
466	915.1	1116.1	593
467	915.26	1118	585
468	915.41	1119.8	579
469	915.57	1121.7	588
470	915.72	1123.5	584
471	915.88	1125.4	592
472	916.03	1127.2	597
473	916.19	1129.1	581
474	916.34	1130.9	580
475	916.5	1132.8	589
476	916.65	1134.6	584
477	916.81	1136.5	587
478	916.97	1138.3	581
479	917.12	1140.2	596
480	917.28	1142	585
481	917.43	1143.8	591
482	917.59	1145.7	589
483	917.74	1147.5	591
484	917.9	1149.4	590
485	918.05	1151.2	584
486	918.21	1153.1	579
487	918.36	1154.9	583
488	918.52	1156.7	591
489	918.67	1158.6	593
490	918.83	1160.4	573
491	918.98	1162.2	572
492	919.14	1164.1	579
493	919.29	1165.9	584
494	919.44	1167.7	578
495	919.6	1169.6	572
496	919.75	1171.4	586
497	919.91	1173.2	582
498	920.06	1175	583
499	920.22	1176.9	574
500	920.37	1178.7	582
501	920.53	1180.5	582
502	920.68	1182.3	588
503	920.84	1184.2	576
504	920.99	1186	589
505	921.15	1187.8	579
506	921.3	1189.6	572
507	921.45	1191.4	583
508	921.61	1193.3	584
509	921.76	1195.1	571
510	921.92	1196.9	568
511	922.07	1198.7	583
512	922.23	1200.5	581
513	922.38	1202.3	564
514	922.54	1204.2	562
515	922.69	1206	577
516	922.84	1207.8	575
517	923	1209.6	573
518	923.15	1211.4	573
519	923.31	1213.2	573
520	923.46	1215	581
521	923.61	1216.8	575
522	923.77	1218.6	583
523	923.92	1220.4	563
524	924.08	1222.2	571
525	924.23	1224	578
526	924.38	1225.8	578
527	924.54	1227.6	581
528	924.69	1229.4	579
529	924.85	1231.2	579
530	925	1233	575
531	925.15	1234.8	569
532	925.31	1236.6	568
533	925.46	1238.4	565
534	925.61	1240.2	570
535	925.77	1242	556
536	925.92	1243.8	569
537	926.08	1245.6	576
538	926.23	1247.4	559
539	926.38	1249.2	571
540	926.54	1251	559
541	926.69	1252.8	557
542	926.84	1254.6	564
543	927	1256.3	558
544	927.15	1258.1	570
545	927.3	1259.9	565
546	927.46	1261.7	567
547	927.61	1263.5	572
548	927.76	1265.3	581
549	927.92	1267	567
550	928.07	1268.8	565
551	928.22	1270.6	557
552	928.38	1272.4	573
553	928.53	1274.2	561
554	928.68	1275.9	560
555	928.84	1277.7	551
556	928.99	1279.5	571
557	929.14	1281.3	572
558	929.3	1283	551
559	929.45	1284.8	569
560	929.6	1286.6	562
561	929.76	1288.3	564
562	929.91	1290.1	550
563	930.06	1291.9	561
564	930.21	1293.6	565
565	930.37	1295.4	559
566	930.52	1297.2	558
567	930.67	1298.9	564
568	930.83	1300.7	562
569	930.98	1302.5	557
570	931.13	1304.2	561
571	931.28	1306	557
572	931.44	1307.8	555
573	931.59	1309.5	552
574	931.74	1311.3	559
575	931.9	1313	555
576	932.05	1314.8	556
577	932.2	1316.5	558
578	932.35	1318.3	556
579	932.51	1320.1	555
580	932.66	1321.8	559
581	932.81	1323.6	554
582	932.96	1325.3	548
583	933.11	1327.1	539
584	933.27	1328.8	544
585	933.42	1330.6	554
586	933.57	1332.3	559
587	933.72	1334.1	548
588	933.88	1335.8	549
589	934.03	1337.5	546
590	934.18	1339.3	555
591	934.33	1341	554
592	934.49	1342.8	545
593	934.64	1344.5	564
594	934.79	1346.3	556
595	934.94	1348	539
596	935.09	1349.7	544
597	935.25	1351.5	553
598	935.4	1353.2	543
599	935.55	1354.9	541
600	935.7	1356.7	538
601	935.85	1358.4	548
602	936.01	1360.2	542
603	936.16	1361.9	532
604	936.31	1363.6	547
605	936.46	1365.3	545
606	936.61	1367.1	549
607	936.76	1368.8	543
608	936.92	1370.5	540
609	937.07	1372.3	540
610	937.22	1374	541
611	937.37	1375.7	531
612	937.52	1377.4	544
613	937.67	1379.2	544
614	937.83	1380.9	552
615	937.98	1382.6	545
616	938.13	1384.3	537
617	938.28	1386	543
618	938.43	1387.8	540
619	938.58	1389.5	545
620	938.73	1391.2	542
621	938.88	1392.9	540
622	939.04	1394.6	543
623	939.19	1396.3	541
624	939.34	1398.1	545
625	939.49	1399.8	543
626	939.64	1401.5	531
627	939.79	1403.2	539
628	939.94	1404.9	536
629	940.09	1406.6	536
630	940.25	1408.3	545
631	940.4	1410	548
632	940.55	1411.7	538
633	940.7	1413.4	555
634	940.85	1415.2	552
635	941	1416.9	537
636	941.15	1418.6	532
637	941.3	1420.3	541
638	941.45	1422	548
639	941.6	1423.7	554
640	941.75	1425.4	545
641	941.9	1427.1	537
642	942.06	1428.8	542
643	942.21	1430.5	543
644	942.36	1432.2	535
645	942.51	1433.9	532
646	942.66	1435.5	534
647	942.81	1437.2	535
648	942.96	1438.9	543
649	943.11	1440.6	538
650	943.26	1442.3	524
651	943.41	1444	527
652	943.56	1445.7	529
653	943.71	1447.4	521
654	943.86	1449.1	531
655	944.01	1450.8	516
656	944.16	1452.4	529
657	944.31	1454.1	520
658	944.46	1455.8	522
659	944.61	1457.5	530
660	944.76	1459.2	532
661	944.91	1460.9	520
662	945.06	1462.5	532
663	945.21	1464.2	529
664	945.36	1465.9	521
665	945.51	1467.6	524
666	945.66	1469.2	517
667	945.81	1470.9	517
668	945.96	1472.6	519
669	946.11	1474.3	525
670	946.26	1475.9	525
671	946.41	1477.6	525
672	946.56	1479.3	515
673	946.71	1481	527
674	946.86	1482.6	513
675	947.01	1484.3	515
676	947.16	1486	516
677	947.31	1487.6	526
678	947.46	1489.3	522
679	947.61	1491	509
680	947.76	1492.6	514
681	947.91	1494.3	514
682	948.06	1496	508
683	948.21	1497.6	527
684	948.36	1499.3	515
685	948.5	1500.9	512
686	948.65	1502.6	514
687	948.8	1504.3	511
688	948.95	1505.9	515
689	949.1	1507.6	517
690	949.25	1509.2	508
691	949.4	1510.9	512
692	949.55	1512.5	520
693	949.7	1514.2	515
694	949.85	1515.8	504
695	950	1517.5	524
696	950.14	1519.1	518
697	950.29	1520.8	494
698	950.44	1522.4	508
699	950.59	1524.1	519
700	950.74	1525.7	504
701	950.89	1527.4	508
702	951.04	1529	507
703	951.19	1530.7	505
704	951.34	1532.3	514
705	951.48	1534	506
706	951.63	1535.6	509
707	951.78	1537.2	511
708	951.93	1538.9	503
709	952.08	1540.5	506
710	952.23	1542.2	514
711	952.38	1543.8	503
712	952.52	1545.4	502
713	952.67	1547.1	495
714	952.82	1548.7	501
715	952.97	1550.3	503
716	953.12	1552	504
717	953.27	1553.6	499
718	953.41	1555.2	507
719	953.56	1556.9	514
720	953.71	1558.5	494
721	953.86	1560.1	494
722	954.01	1561.7	489
723	954.15	1563.4	491
724	954.3	1565	489
725	954.45	1566.6	500
726	954.6	1568.2	501
727	954.75	1569.9	494
728	954.89	1571.5	494
729	955.04	1573.1	505
730	955.19	1574.7	491
731	955.34	1576.4	486
732	955.49	1578	487
733	955.63	1579.6	497
734	955.78	1581.2	492
735	955.93	1582.8	483
736	956.08	1584.4	493
737	956.22	1586.1	490
738	956.37	1587.7	492
739	956.52	1589.3	485
740	956.67	1590.9	492
741	956.81	1592.5	490
742	956.96	1594.1	476
743	957.11	1595.7	494
744	957.26	1597.3	502
745	957.4	1598.9	489
746	957.55	1600.6	480
747	957.7	1602.2	488
748	957.85	1603.8	485
749	957.99	1605.4	493
750	958.14	1607	480
751	958.29	1608.6	486
752	958.43	1610.2	486
753	958.58	1611.8	495
754	958.73	1613.4	487
755	958.88	1615	486
756	959.02	1616.6	481
757	959.17	1618.2	477
758	959.32	1619.8	487
759	959.46	1621.4	483
760	959.61	1623	489
761	959.76	1624.6	478
762	959.9	1626.1	482
763	960.05	1627.7	485
764	960.2	1629.3	482
765	960.34	1630.9	478
766	960.49	1632.5	488
767	960.64	1634.1	487
768	960.78	1635.7	483
769	960.93	1637.3	484
770	961.08	1638.9	479
771	961.22	1640.4	480
772	961.37	1642	474
773	961.52	1643.6	484
774	961.66	1645.2	483
775	961.81	1646.8	482
776	961.96	1648.4	471
777	962.1	1649.9	476
778	962.25	1651.5	477
779	962.39	1653.1	469
780	962.54	1654.7	477
781	962.69	1656.3	478
782	962.83	1657.8	474
783	962.98	1659.4	469
784	963.12	1661	474
785	963.27	1662.5	477
786	963.42	1664.1	466
787	963.56	1665.7	474
788	963.71	1667.3	478
789	963.85	1668.8	468
790	964	1670.4	472
791	964.15	1672	454
792	964.29	1673.5	470
793	964.44	1675.1	468
794	964.58	1676.7	473
795	964.73	1678.2	460
796	964.87	1679.8	464
797	965.02	1681.4	472
798	965.16	1682.9	470
799	965.31	1684.5	468
800	965.46	1686	464
801	965.6	1687.6	460
802	965.75	1689.2	468
803	965.89	1690.7	465
804	966.04	1692.3	467
805	966.18	1693.8	467
806	966.33	1695.4	455
807	966.47	1696.9	459
808	966.62	1698.5	462
809	966.76	1700.1	474
810	966.91	1701.6	456
811	967.05	1703.2	463
812	967.2	1704.7	450
813	967.34	1706.3	464
814	967.49	1707.8	462
815	967.63	1709.4	456
816	967.78	1710.9	460
817	967.92	1712.4	452
818	968.07	1714	454
819	968.21	1715.5	467
820	968.36	1717.1	455
821	968.5	1718.6	458
822	968.65	1720.2	460
823	968.79	1721.7	457
824	968.93	1723.2	463
825	969.08	1724.8	455
826	969.22	1726.3	453
827	969.37	1727.9	456
828	969.51	1729.4	450
829	969.66	1730.9	453
830	969.8	1732.5	460
831	969.95	1734	459
832	970.09	1735.5	447
833	970.23	1737.1	454
834	970.38	1738.6	454
835	970.52	1740.1	447
836	970.67	1741.7	463
837	970.81	1743.2	443
838	970.95	1744.7	451
839	971.1	1746.2	454
840	971.24	1747.8	454
841	971.39	1749.3	448
842	971.53	1750.8	446
843	971.67	1752.3	445
844	971.82	1753.9	455
845	971.96	1755.4	461
846	972.11	1756.9	449
847	972.25	1758.4	458
848	972.39	1759.9	448
849	972.54	1761.5	456
850	972.68	1763	445
851	972.82	1764.5	453
852	972.97	1766	444
853	973.11	1767.5	450
854	973.25	1769	434
855	973.4	1770.6	445
856	973.54	1772.1	442
857	973.68	1773.6	439
858	973.83	1775.1	446
859	973.97	1776.6	436
860	974.11	1778.1	439
861	974.26	1779.6	443
862	974.4	1781.1	445
863	974.54	1782.6	442
864	974.69	1784.1	450
865	974.83	1785.7	434
866	974.97	1787.2	446
867	975.12	1788.7	427
868	975.26	1790.2	445
869	975.4	1791.7	439
870	975.54	1793.2	434
871	975.69	1794.7	440
872	975.83	1796.2	443
873	975.97	1797.7	440
874	976.12	1799.2	426
875	976.26	1800.7	436
876	976.4	1802.2	433
877	976.54	1803.6	429
878	976.69	1805.1	436
879	976.83	1806.6	430
880	976.97	1808.1	435
881	977.11	1809.6	429
882	977.26	1811.1	445
883	977.4	1812.6	434
884	977.54	1814.1	439
885	977.68	1815.6	435
886	977.82	1817.1	442
887	977.97	1818.6	436
888	978.11	1820	431
889	978.25	1821.5	431
890	978.39	1823	435
891	978.53	1824.5	428
892	978.68	1826	431
893	978.82	1827.5	425
894	978.96	1828.9	432
895	979.1	1830.4	427
896	979.24	1831.9	426
897	979.39	1833.4	422
898	979.53	1834.9	426
899	979.67	1836.3	435
900	979.81	1837.8	427
901	979.95	1839.3	414
902	980.09	1840.8	425
903	980.24	1842.2	419
904	980.38	1843.7	431
905	980.52	1845.2	419
906	980.66	1846.6	425
907	980.8	1848.1	428
908	980.94	1849.6	429
909	981.08	1851	423
910	981.23	1852.5	416
911	981.37	1854	427
912	981.51	1855.4	423
913	981.65	1856.9	419
914	981.79	1858.4	418
915	981.93	1859.8	415
916	982.07	1861.3	427
917	982.21	1862.8	425
918	982.35	1864.2	421
919	982.5	1865.7	419
920	982.64	1867.1	425
921	982.78	1868.6	416
922	982.92	1870.1	421
923	983.06	1871.5	419
924	983.2	1873	423
925	983.34	1874.4	413
926	983.48	1875.9	410
927	983.62	1877.3	414
928	983.76	1878.8	415
929	983.9	1880.2	420
930	984.04	1881.7	422
931	984.18	1883.1	411
932	984.32	1884.6	414
933	984.46	1886	420
934	984.6	1887.5	417
935	984.74	1888.9	418
936	984.88	1890.4	409
937	985.02	1891.8	419
938	985.16	1893.3	413
939	985.3	1894.7	420
940	985.45	1896.2	415
941	985.59	1897.6	419
942	985.73	1899	410
943	985.86	1900.5	415
944	986	1901.9	412
945	986.14	1903.4	413
946	986.28	1904.8	408
947	986.42	1906.2	411
948	986.56	1907.7	420
949	986.7	1909.1	410
950	986.84	1910.5	410
951	986.98	1912	410
952	987.12	1913.4	411
953	987.26	1914.8	410
954	987.4	1916.3	412
955	987.54	1917.7	409
956	987.68	1919.1	385
957	987.82	1920.6	405
958	987.96	1922	414
959	988.1	1923.4	407
960	988.24	1924.8	401
961	988.38	1926.3	408
962	988.52	1927.7	407
963	988.66	1929.1	407
964	988.79	1930.5	404
965	988.93	1931.9	409
966	989.07	1933.4	408
967	989.21	1934.8	410
968	989.35	1936.2	407
969	989.49	1937.6	403
970	989.63	1939	406
971	989.77	1940.5	397
972	989.91	1941.9	413
973	990.04	1943.3	404
974	990.18	1944.7	406
975	990.32	1946.1	401
976	990.46	1947.5	402
977	990.6	1948.9	397
978	990.74	1950.4	397
979	990.88	1951.8	399
980	991.01	1953.2	413
981	991.15	1954.6	391
982	991.29	1956	399
983	991.43	1957.4	399
984	991.57	1958.8	399
985	991.71	1960.2	396
986	991.84	1961.6	393
987	991.98	1963	401
988	992.12	1964.4	399
989	992.26	1965.8	392
990	992.4	1967.2	401
991	992.53	1968.6	394
992	992.67	1970	394
993	992.81	1971.4	397
994	992.95	1972.8	398
995	993.08	1974.2	404
996	993.22	1975.6	396
997	993.36	1977	387
998	993.5	1978.4	395
999	993.64	1979.8	392
1000	993.77	1981.2	391
1001	993.91	1982.6	395
1002	994.05	1984	394
1003	994.19	1985.4	386
1004	994.32	1986.8	389
1005	994.46	1988.1	389
1006	994.6	1989.5	396
1007	994.73	1990.9	391
1008	994.87	1992.3	393
1009	995.01	1993.7	396
1010	995.15	1995.1	389
1011	995.28	1996.5	386
1012	995.42	1997.8	387
1013	995.56	1999.2	389
1014	995.69	2000.6	390
1015	995.83	2002	391
1016	995.97	2003.4	388
1017	996.1	2004.7	386
1018	996.24	2006.1	389
1019	996.38	2007.5	387
1020	996.51	2008.9	389
1021	996.65	2010.3	388
1022	996.79	2011.6	383
1023	996.92	2013	392
1024	997.06	2014.4	387
